block	trial	task	cue	prob	red	green	blue	shape	response	early	invalid	rt	outcome	optimal
1	1	2	6	80	0	255	0	2	2	0	0	522.17	0	0
1	2	2	6	80	0	255	0	2	1	0	0	337.13	1	1
1	3	2	4	80	255	192	203	4	2	0	0	811.86	1	1
1	4	2	5	80	128	0	0	6	2	0	0	1466.6	1	0
1	5	2	3	50	255	0	0	5	1	0	0	1223.3	1	1
1	6	2	2	50	255	0	255	1	2	0	0	995.98	1	1
1	7	2	4	80	255	192	203	4	2	0	0	914.75	1	1
1	8	2	3	50	255	0	0	5	2	0	0	508.88	1	0
1	9	2	4	80	255	192	203	4	2	0	0	829.66	0	1
1	10	2	5	80	128	0	0	6	1	0	0	903.26	1	1
1	11	2	3	50	255	0	0	5	2	0	0	892.17	1	0
1	12	2	4	80	255	192	203	4	2	0	0	1099.6	1	1
1	13	2	5	80	128	0	0	6	1	0	0	1001	1	1
1	14	2	4	80	255	192	203	4	2	0	0	647.55	1	1
1	15	2	5	80	128	0	0	6	1	0	0	560.62	1	1
1	16	2	1	50	0	0	0	3	2	0	0	1433.9	1	1
1	17	2	6	80	0	255	0	2	1	0	0	588.38	1	1
1	18	2	5	80	128	0	0	6	1	0	0	1007	1	1
1	19	2	5	80	128	0	0	6	2	0	0	471.57	0	0
1	20	2	6	80	0	255	0	2	2	0	0	1499	0	0
1	21	2	1	50	0	0	0	3	1	0	0	1060.6	0	0
1	22	2	5	80	128	0	0	6	1	0	0	531.92	1	1
1	23	2	5	80	128	0	0	6	1	0	0	1089.5	0	1
1	24	2	6	80	0	255	0	2	2	0	0	636.04	0	0
1	25	2	5	80	128	0	0	6	1	0	0	1290	1	1
1	26	2	2	50	255	0	255	1	1	0	0	1563.2	0	0
1	27	2	4	80	255	192	203	4	2	0	0	325.07	1	1
1	28	2	3	50	255	0	0	5	2	0	0	859.85	0	0
1	29	2	1	50	0	0	0	3	2	0	0	1088.1	0	1
1	30	2	4	80	255	192	203	4	2	0	0	567.45	1	1
1	31	2	1	50	0	0	0	3	1	0	0	424.76	0	0
1	32	2	6	80	0	255	0	2	1	0	0	1412.4	1	1
1	33	2	2	50	255	0	255	1	1	0	0	1626.2	1	0
1	34	2	6	80	0	255	0	2	1	0	0	1334.7	1	1
1	35	2	5	80	128	0	0	6	1	0	0	1172.8	1	1
1	36	2	2	50	255	0	255	1	1	0	0	990.37	1	0
1	37	2	2	50	255	0	255	1	1	0	0	1285.1	1	0
1	38	2	4	80	255	192	203	4	2	0	0	662.35	1	1
1	39	2	4	80	255	192	203	4	2	0	0	517.36	1	1
1	40	2	1	50	0	0	0	3	1	0	0	774.85	0	0
1	41	2	2	50	255	0	255	1	1	0	0	360.36	0	0
1	42	2	5	80	128	0	0	6	1	0	0	683.24	1	1
1	43	2	4	80	255	192	203	4	2	0	0	531.6	1	1
1	44	2	3	50	255	0	0	5	0	0	1	0	-1	-1
1	45	2	3	50	255	0	0	5	2	0	0	254.92	0	0
1	46	2	2	50	255	0	255	1	1	0	0	233.35	0	0
1	47	2	2	50	255	0	255	1	1	0	0	826.13	1	0
1	48	2	6	80	0	255	0	2	1	0	0	610.8	0	1
1	49	2	6	80	0	255	0	2	2	0	0	417.1	0	0
1	50	2	5	80	128	0	0	6	2	0	0	1286.7	0	0
1	51	2	4	80	255	192	203	4	2	0	0	331	1	1
1	52	2	1	50	0	0	0	3	1	0	0	884.25	0	0
1	53	2	6	80	0	255	0	2	1	0	0	362.86	0	1
1	54	2	4	80	255	192	203	4	2	0	0	1034	0	1
1	55	2	6	80	0	255	0	2	1	0	0	1350.9	1	1
1	56	2	3	50	255	0	0	5	1	0	0	1621.8	0	1
1	57	2	3	50	255	0	0	5	1	0	0	710.62	1	1
1	58	2	3	50	255	0	0	5	1	0	0	786.28	0	1
1	59	2	5	80	128	0	0	6	1	0	0	581.71	1	1
1	60	2	2	50	255	0	255	1	1	0	0	502.85	0	0
1	61	2	3	50	255	0	0	5	1	0	0	377.29	0	1
1	62	2	1	50	0	0	0	3	1	0	0	741.21	0	0
1	63	2	1	50	0	0	0	3	2	0	0	343.13	1	1
1	64	2	3	50	255	0	0	5	2	0	0	1299	1	0
1	65	2	1	50	0	0	0	3	2	0	0	1041.9	1	1
1	66	2	6	80	0	255	0	2	2	0	0	495.12	0	0
1	67	2	4	80	255	192	203	4	0	0	1	0	-1	-1
1	68	2	4	80	255	192	203	4	2	0	0	269.59	1	1
1	69	2	3	50	255	0	0	5	1	0	0	488.02	1	1
1	70	2	6	80	0	255	0	2	2	0	0	676.72	0	0
1	71	2	6	80	0	255	0	2	1	0	0	681.86	1	1
1	72	2	3	50	255	0	0	5	2	0	0	1386.5	0	0
1	73	2	6	80	0	255	0	2	1	0	0	1075.3	1	1
1	74	2	3	50	255	0	0	5	1	0	0	1255.2	0	1
1	75	2	6	80	0	255	0	2	1	0	0	1163.9	1	1
1	76	2	3	50	255	0	0	5	2	0	0	795.58	1	0
1	77	2	5	80	128	0	0	6	1	0	0	546.6900000000001	0	1
1	78	2	6	80	0	255	0	2	1	0	0	832.62	1	1
1	79	2	3	50	255	0	0	5	1	0	0	1047.4	1	1
1	80	2	6	80	0	255	0	2	2	0	0	810.99	0	0
1	81	2	3	50	255	0	0	5	1	0	0	940.05	0	1
1	82	2	3	50	255	0	0	5	1	0	0	509.2	0	1
1	83	2	4	80	255	192	203	4	2	0	0	672.5	1	1
1	84	2	1	50	0	0	0	3	2	0	0	1116.6	0	1
1	85	2	2	50	255	0	255	1	1	0	0	703.41	1	0
1	86	2	4	80	255	192	203	4	2	0	0	522.37	0	1
1	87	2	4	80	255	192	203	4	2	0	0	770.84	1	1
1	88	2	6	80	0	255	0	2	1	0	0	467.57	1	1
1	89	2	1	50	0	0	0	3	1	0	0	1275.9	0	0
1	90	2	3	50	255	0	0	5	1	0	0	969.6	0	1
1	91	2	2	50	255	0	255	1	1	0	0	622.67	0	0
1	92	2	1	50	0	0	0	3	2	0	0	272	0	1
1	93	2	5	80	128	0	0	6	1	0	0	1215.7	1	1
1	94	2	1	50	0	0	0	3	2	0	0	768.13	0	1
1	95	2	5	80	128	0	0	6	1	0	0	310.61	1	1
1	96	2	5	80	128	0	0	6	1	0	0	258.98	1	1
1	97	2	4	80	255	192	203	4	0	0	1	0.57133	-1	-1
1	98	2	6	80	0	255	0	2	1	0	0	791.98	1	1
1	99	2	1	50	0	0	0	3	2	0	0	832.99	0	1
1	100	2	1	50	0	0	0	3	0	1	1	0	-1	-1
1	101	2	3	50	255	0	0	5	1	0	0	666.0599999999999	0	1
1	102	2	4	80	255	192	203	4	2	0	0	431.26	0	1
1	103	2	1	50	0	0	0	3	2	0	0	1185.5	0	1
1	104	2	5	80	128	0	0	6	1	0	0	953.01	1	1
1	105	2	4	80	255	192	203	4	2	0	0	539.91	1	1
1	106	2	6	80	0	255	0	2	2	0	0	506.25	0	0
1	107	2	6	80	0	255	0	2	1	0	0	617.6900000000001	1	1
1	108	2	6	80	0	255	0	2	1	0	0	596.21	1	1
1	109	2	5	80	128	0	0	6	1	0	0	721.13	1	1
1	110	2	2	50	255	0	255	1	1	0	0	309.54	0	0
1	111	2	4	80	255	192	203	4	2	0	0	333.11	1	1
1	112	2	1	50	0	0	0	3	2	0	0	539.5599999999999	0	1
1	113	2	3	50	255	0	0	5	1	0	0	759.1799999999999	1	1
1	114	2	3	50	255	0	0	5	1	0	0	648.23	1	1
1	115	2	6	80	0	255	0	2	1	0	0	931.98	1	1
1	116	2	2	50	255	0	255	1	1	0	0	334.07	1	0
1	117	2	1	50	0	0	0	3	1	0	0	238.72	1	0
1	118	2	5	80	128	0	0	6	1	0	0	581.29	1	1
1	119	2	5	80	128	0	0	6	1	0	0	566.12	1	1
1	120	2	2	50	255	0	255	1	1	0	0	417.56	1	0
1	121	2	2	50	255	0	255	1	1	0	0	316.77	1	0
1	122	2	2	50	255	0	255	1	1	0	0	584.77	0	0
1	123	2	2	50	255	0	255	1	1	0	0	527.86	1	0
1	124	2	1	50	0	0	0	3	1	0	0	647.7	1	0
1	125	2	5	80	128	0	0	6	1	0	0	640.36	1	1
1	126	2	4	80	255	192	203	4	2	0	0	514.0599999999999	1	1
1	127	2	4	80	255	192	203	4	2	0	0	467.74	0	1
1	128	2	1	50	0	0	0	3	1	0	0	196.89	1	0
1	129	2	4	80	255	192	203	4	2	0	0	236.53	1	1
1	130	2	5	80	128	0	0	6	1	0	0	347.66	1	1
1	131	2	1	50	0	0	0	3	1	0	0	1458.6	0	0
1	132	2	2	50	255	0	255	1	1	0	0	525.3200000000001	1	0
1	133	2	2	50	255	0	255	1	1	0	0	459.9	0	0
1	134	2	2	50	255	0	255	1	0	1	1	0	-1	-1
1	135	2	2	50	255	0	255	1	1	0	0	130.95	0	0
1	136	2	3	50	255	0	0	5	1	0	0	722.46	0	1
1	137	2	2	50	255	0	255	1	1	0	0	627.02	0	0
1	138	2	2	50	255	0	255	1	1	0	0	697.6799999999999	0	0
1	139	2	1	50	0	0	0	3	1	0	0	1221.6	0	0
1	140	2	3	50	255	0	0	5	1	0	0	1038.1	0	1
1	141	2	2	50	255	0	255	1	1	0	0	269.18	0	0
1	142	2	1	50	0	0	0	3	1	0	0	504.89	0	0
1	143	2	5	80	128	0	0	6	1	0	0	1693	1	1
1	144	2	1	50	0	0	0	3	1	0	0	533.95	1	0
2	1	3	6	80	0	128	0	2	2	0	0	971.8	0	0
2	2	3	6	80	0	128	0	2	0	0	1	0	-1	-1
2	3	3	4	80	255	165	0	4	2	0	0	1617.1	0	0
2	4	3	1	80	173	255	47	3	1	0	0	1062.5	1	1
2	5	3	5	80	0	255	255	6	1	0	0	1247.1	0	0
2	6	3	3	80	255	69	0	5	2	0	0	1018.8	1	1
2	7	3	3	80	255	69	0	5	2	0	0	919.8099999999999	1	1
2	8	3	2	80	0	0	128	1	2	0	0	617.5700000000001	1	1
2	9	3	2	80	0	0	128	1	2	0	0	460.54	1	1
2	10	3	2	80	0	0	128	1	2	0	0	397.01	1	1
2	11	3	1	80	173	255	47	3	2	0	0	655.83	1	0
2	12	3	2	80	0	0	128	1	2	0	0	673.24	1	1
2	13	3	5	80	0	255	255	6	1	0	0	353.94	0	0
2	14	3	3	80	255	69	0	5	1	0	0	889.85	0	0
2	15	3	5	80	0	255	255	6	2	0	0	269.11	1	1
2	16	3	1	80	173	255	47	3	1	0	0	767.5700000000001	1	1
2	17	3	2	80	0	0	128	1	2	0	0	213.48	0	1
2	18	3	6	80	0	128	0	2	1	0	0	810.73	0	1
2	19	3	3	80	255	69	0	5	2	0	0	1646.3	1	1
2	20	3	4	80	255	165	0	4	2	0	0	1331.8	1	0
2	21	3	4	80	255	165	0	4	2	0	0	532.51	1	0
2	22	3	2	80	0	0	128	1	2	0	0	301.89	1	1
2	23	3	5	80	0	255	255	6	2	0	0	564.02	1	1
2	24	3	5	80	0	255	255	6	2	0	0	424.72	1	1
2	25	3	3	80	255	69	0	5	2	0	0	1146.9	1	1
2	26	3	3	80	255	69	0	5	2	0	0	553.13	0	1
2	27	3	6	80	0	128	0	2	2	0	0	379.73	0	0
2	28	3	6	80	0	128	0	2	1	0	0	492.56	1	1
2	29	3	5	80	0	255	255	6	2	0	0	325.48	0	1
2	30	3	5	80	0	255	255	6	1	0	0	530.97	1	0
2	31	3	6	80	0	128	0	2	1	0	0	521.01	1	1
2	32	3	5	80	0	255	255	6	1	0	0	630.54	0	0
2	33	3	6	80	0	128	0	2	1	0	0	526.22	1	1
2	34	3	2	80	0	0	128	1	2	0	0	218.04	1	1
2	35	3	5	80	0	255	255	6	2	0	0	517.46	1	1
2	36	3	3	80	255	69	0	5	1	0	0	456.84	0	0
2	37	3	3	80	255	69	0	5	2	0	0	935.11	1	1
2	38	3	6	80	0	128	0	2	1	0	0	602.65	1	1
2	39	3	6	80	0	128	0	2	1	0	0	387.76	1	1
2	40	3	2	80	0	0	128	1	2	0	0	608.33	1	1
2	41	3	2	80	0	0	128	1	2	0	0	378.82	1	1
2	42	3	2	80	0	0	128	1	2	0	0	652.52	0	1
2	43	3	6	80	0	128	0	2	1	0	0	415.67	0	1
2	44	3	2	80	0	0	128	1	2	0	0	515.0599999999999	0	1
2	45	3	5	80	0	255	255	6	1	0	0	615.3200000000001	0	0
2	46	3	2	80	0	0	128	1	2	0	0	226.17	1	1
2	47	3	6	80	0	128	0	2	1	0	0	166	1	1
2	48	3	1	80	173	255	47	3	2	0	0	714.1799999999999	0	0
2	49	3	4	80	255	165	0	4	2	0	0	262.08	1	0
2	50	3	4	80	255	165	0	4	2	0	0	432.53	1	0
2	51	3	4	80	255	165	0	4	2	0	0	513.0599999999999	0	0
2	52	3	1	80	173	255	47	3	2	0	0	1629.6	1	0
2	53	3	3	80	255	69	0	5	2	0	0	458	1	1
2	54	3	2	80	0	0	128	1	2	0	0	563.42	1	1
2	55	3	1	80	173	255	47	3	2	0	0	1445.4	0	0
2	56	3	6	80	0	128	0	2	1	0	0	486.7	1	1
2	57	3	1	80	173	255	47	3	1	0	0	1180.2	1	1
2	58	3	2	80	0	0	128	1	2	0	0	622.6	1	1
2	59	3	3	80	255	69	0	5	2	0	0	1038.4	1	1
2	60	3	3	80	255	69	0	5	2	0	0	583.84	1	1
2	61	3	5	80	0	255	255	6	2	0	0	504.54	1	1
2	62	3	4	80	255	165	0	4	2	0	0	787.3200000000001	1	0
2	63	3	1	80	173	255	47	3	1	0	0	735.4	1	1
2	64	3	3	80	255	69	0	5	1	0	0	496.89	0	0
2	65	3	6	80	0	128	0	2	1	0	0	258.53	1	1
2	66	3	1	80	173	255	47	3	2	0	0	507.98	1	0
2	67	3	5	80	0	255	255	6	2	0	0	568.87	1	1
2	68	3	6	80	0	128	0	2	1	0	0	434.98	1	1
2	69	3	6	80	0	128	0	2	1	0	0	487.09	0	1
2	70	3	3	80	255	69	0	5	1	0	0	1500.4	0	0
2	71	3	4	80	255	165	0	4	2	0	0	313.05	1	0
2	72	3	3	80	255	69	0	5	2	0	0	648.22	0	1
2	73	3	5	80	0	255	255	6	2	0	0	281.6	0	1
2	74	3	2	80	0	0	128	1	2	0	0	479.85	0	1
2	75	3	5	80	0	255	255	6	2	0	0	360.45	0	1
2	76	3	4	80	255	165	0	4	2	0	0	381.37	0	0
2	77	3	1	80	173	255	47	3	2	0	0	809.5599999999999	0	0
2	78	3	5	80	0	255	255	6	2	0	0	300.43	0	1
2	79	3	5	80	0	255	255	6	2	0	0	309.14	0	1
2	80	3	4	80	255	165	0	4	2	0	0	533.66	1	0
2	81	3	5	80	0	255	255	6	2	0	0	179.08	1	1
2	82	3	1	80	173	255	47	3	2	0	0	1095.9	1	0
2	83	3	6	80	0	128	0	2	1	0	0	228.12	0	1
2	84	3	4	80	255	165	0	4	2	0	0	789.84	0	0
2	85	3	1	80	173	255	47	3	2	0	0	791.51	0	0
2	86	3	6	80	0	128	0	2	1	0	0	612.21	1	1
2	87	3	5	80	0	255	255	6	2	0	0	871.46	1	1
2	88	3	2	80	0	0	128	1	2	0	0	483.91	1	1
2	89	3	6	80	0	128	0	2	2	0	0	425.63	0	0
2	90	3	3	80	255	69	0	5	1	0	0	552.64	0	0
2	91	3	3	80	255	69	0	5	1	0	0	192.68	0	0
2	92	3	4	80	255	165	0	4	2	0	0	516.27	0	0
2	93	3	4	80	255	165	0	4	2	0	0	349.23	1	0
2	94	3	6	80	0	128	0	2	1	0	0	538.26	1	1
2	95	3	3	80	255	69	0	5	2	0	0	1016.1	0	1
2	96	3	1	80	173	255	47	3	2	0	0	1577.1	0	0
2	97	3	2	80	0	0	128	1	2	0	0	0.57675	0	1
2	98	3	2	80	0	0	128	1	2	0	0	636.61	1	1
2	99	3	6	80	0	128	0	2	1	0	0	375	1	1
2	100	3	1	80	173	255	47	3	2	0	0	340.82	1	0
2	101	3	1	80	173	255	47	3	2	0	0	489.26	0	0
2	102	3	1	80	173	255	47	3	2	0	0	323	0	0
2	103	3	2	80	0	0	128	1	2	0	0	461.02	1	1
2	104	3	2	80	0	0	128	1	2	0	0	381.77	1	1
2	105	3	3	80	255	69	0	5	2	0	0	922.72	1	1
2	106	3	5	80	0	255	255	6	2	0	0	1081.9	0	1
2	107	3	1	80	173	255	47	3	2	0	0	361.34	0	0
2	108	3	1	80	173	255	47	3	2	0	0	922.5700000000001	0	0
2	109	3	4	80	255	165	0	4	2	0	0	283.89	0	0
2	110	3	6	80	0	128	0	2	1	0	0	465.6	1	1
2	111	3	5	80	0	255	255	6	2	0	0	646.59	1	1
2	112	3	1	80	173	255	47	3	1	0	0	506.06	1	1
2	113	3	2	80	0	0	128	1	2	0	0	268.84	1	1
2	114	3	1	80	173	255	47	3	1	0	0	369.75	1	1
2	115	3	5	80	0	255	255	6	2	0	0	330.3	1	1
2	116	3	6	80	0	128	0	2	1	0	0	328.62	1	1
2	117	3	3	80	255	69	0	5	1	0	0	663.5599999999999	1	0
2	118	3	1	80	173	255	47	3	1	0	0	716.42	1	1
2	119	3	4	80	255	165	0	4	2	0	0	287.43	0	0
2	120	3	4	80	255	165	0	4	1	0	0	380.6	0	1
2	121	3	3	80	255	69	0	5	2	0	0	1249.1	0	1
2	122	3	3	80	255	69	0	5	1	0	0	291.05	1	0
2	123	3	1	80	173	255	47	3	1	0	0	478.72	0	1
2	124	3	4	80	255	165	0	4	2	0	0	745.1799999999999	0	0
2	125	3	4	80	255	165	0	4	2	0	0	290.18	0	0
2	126	3	1	80	173	255	47	3	2	0	0	832.8	0	0
2	127	3	5	80	0	255	255	6	2	0	0	251.03	1	1
2	128	3	5	80	0	255	255	6	2	0	0	826.49	1	1
2	129	3	3	80	255	69	0	5	1	0	0	358.49	0	0
2	130	3	4	80	255	165	0	4	2	0	0	972.66	0	0
2	131	3	6	80	0	128	0	2	1	0	0	333.95	1	1
2	132	3	5	80	0	255	255	6	2	0	0	488.06	1	1
2	133	3	2	80	0	0	128	1	2	0	0	328.53	1	1
2	134	3	3	80	255	69	0	5	1	0	0	444.34	1	0
2	135	3	4	80	255	165	0	4	2	0	0	330	1	0
2	136	3	4	80	255	165	0	4	2	0	0	278.28	0	0
2	137	3	4	80	255	165	0	4	2	0	0	448.3	0	0
2	138	3	3	80	255	69	0	5	1	0	0	416.77	0	0
2	139	3	4	80	255	165	0	4	2	0	0	1336.7	0	0
2	140	3	2	80	0	0	128	1	2	0	0	126.69	1	1
2	141	3	4	80	255	165	0	4	1	0	0	290.89	1	1
2	142	3	2	80	0	0	128	1	2	0	0	341.18	1	1
2	143	3	1	80	173	255	47	3	1	0	0	1049.1	1	1
2	144	3	6	80	0	128	0	2	1	0	0	421.02	1	1
3	1	1	6	50	255	255	0	2	2	0	0	854.52	0	1
3	2	1	2	50	0	128	128	1	0	0	1	0	-1	-1
3	3	1	3	50	128	0	128	5	2	0	0	1077.8	0	0
3	4	1	5	50	128	128	0	6	2	0	0	663.97	0	0
3	5	1	1	50	255	255	255	3	2	0	0	948.8	1	0
3	6	1	6	50	255	255	0	2	1	0	0	342.03	0	0
3	7	1	2	50	0	128	128	1	2	0	0	917.22	0	1
3	8	1	1	50	255	255	255	3	2	0	0	397.83	1	0
3	9	1	2	50	0	128	128	1	1	0	0	263.8	1	0
3	10	1	3	50	128	0	128	5	1	0	0	418.22	0	1
3	11	1	6	50	255	255	0	2	1	0	0	387.14	0	0
3	12	1	4	50	0	0	255	4	1	0	0	264.87	0	0
3	13	1	1	50	255	255	255	3	2	0	0	251.19	1	0
3	14	1	6	50	255	255	0	2	2	0	0	412.74	1	1
3	15	1	3	50	128	0	128	5	1	0	0	389.21	0	1
3	16	1	2	50	0	128	128	1	1	0	0	399.84	0	0
3	17	1	1	50	255	255	255	3	2	0	0	192.97	1	0
3	18	1	1	50	255	255	255	3	2	0	0	279.99	1	0
3	19	1	6	50	255	255	0	2	2	0	0	394.83	1	1
3	20	1	3	50	128	0	128	5	2	0	0	183.65	1	0
3	21	1	2	50	0	128	128	1	1	0	0	612.88	1	0
3	22	1	5	50	128	128	0	6	1	0	0	1222.6	0	1
3	23	1	5	50	128	128	0	6	2	0	0	368.38	1	0
3	24	1	5	50	128	128	0	6	2	0	0	408.35	1	0
3	25	1	2	50	0	128	128	1	1	0	0	291.5	1	0
3	26	1	2	50	0	128	128	1	1	0	0	330.18	1	0
3	27	1	1	50	255	255	255	3	2	0	0	211.43	0	0
3	28	1	5	50	128	128	0	6	2	0	0	467.83	0	0
3	29	1	6	50	255	255	0	2	2	0	0	282.33	0	1
3	30	1	2	50	0	128	128	1	1	0	0	304.95	1	0
3	31	1	1	50	255	255	255	3	2	0	0	253.69	1	0
3	32	1	3	50	128	0	128	5	2	0	0	760.48	0	0
3	33	1	6	50	255	255	0	2	2	0	0	451.32	0	1
3	34	1	5	50	128	128	0	6	2	0	0	284.53	0	0
3	35	1	1	50	255	255	255	3	2	0	0	422.85	1	0
3	36	1	2	50	0	128	128	1	1	0	0	251.1	1	0
3	37	1	4	50	0	0	255	4	1	0	0	608.8099999999999	0	0
3	38	1	4	50	0	0	255	4	2	0	0	226.16	1	1
3	39	1	2	50	0	128	128	1	1	0	0	491.44	0	0
3	40	1	5	50	128	128	0	6	1	0	0	997.71	1	1
3	41	1	6	50	255	255	0	2	2	0	0	537.0599999999999	1	1
3	42	1	5	50	128	128	0	6	1	0	0	408.03	1	1
3	43	1	3	50	128	0	128	5	1	0	0	528.87	0	1
3	44	1	5	50	128	128	0	6	1	0	0	1651.3	0	1
3	45	1	6	50	255	255	0	2	1	0	0	717.66	1	0
3	46	1	4	50	0	0	255	4	2	0	0	1460	0	1
3	47	1	6	50	255	255	0	2	1	0	0	424.24	0	0
3	48	1	4	50	0	0	255	4	2	0	0	391.62	0	1
3	49	1	1	50	255	255	255	3	2	0	0	174.82	0	0
3	50	1	4	50	0	0	255	4	2	0	0	1561.3	0	1
3	51	1	3	50	128	0	128	5	1	0	0	616.0700000000001	0	1
3	52	1	5	50	128	128	0	6	1	0	0	393.26	1	1
3	53	1	6	50	255	255	0	2	1	0	0	1196.4	1	0
3	54	1	1	50	255	255	255	3	2	0	0	478.73	1	0
3	55	1	2	50	0	128	128	1	1	0	0	892.99	1	0
3	56	1	4	50	0	0	255	4	2	0	0	1181.1	1	1
3	57	1	5	50	128	128	0	6	1	0	0	719.73	0	1
3	58	1	4	50	0	0	255	4	2	0	0	326.64	1	1
3	59	1	4	50	0	0	255	4	2	0	0	595.08	1	1
3	60	1	5	50	128	128	0	6	2	0	0	824.9400000000001	0	0
3	61	1	2	50	0	128	128	1	1	0	0	417.66	1	0
3	62	1	3	50	128	0	128	5	1	0	0	522.36	0	1
3	63	1	6	50	255	255	0	2	1	0	0	540.4	1	0
3	64	1	6	50	255	255	0	2	1	0	0	420.66	1	0
3	65	1	5	50	128	128	0	6	2	0	0	1138.1	1	0
3	66	1	1	50	255	255	255	3	2	0	0	499.75	1	0
3	67	1	6	50	255	255	0	2	2	0	0	1343.1	1	1
3	68	1	5	50	128	128	0	6	1	0	0	621.3099999999999	1	1
3	69	1	4	50	0	0	255	4	2	0	0	146.81	0	1
3	70	1	3	50	128	0	128	5	1	0	0	389.68	1	1
3	71	1	5	50	128	128	0	6	2	0	0	405.67	1	0
3	72	1	4	50	0	0	255	4	1	0	0	312.5	1	0
3	73	1	4	50	0	0	255	4	1	0	0	424.32	1	0
3	74	1	3	50	128	0	128	5	1	0	0	632.28	1	1
3	75	1	2	50	0	128	128	1	1	0	0	627.8	0	0
3	76	1	1	50	255	255	255	3	2	0	0	397.99	1	0
3	77	1	4	50	0	0	255	4	1	0	0	447.08	1	0
3	78	1	3	50	128	0	128	5	1	0	0	936.23	1	1
3	79	1	5	50	128	128	0	6	1	0	0	672.5	0	1
3	80	1	4	50	0	0	255	4	1	0	0	335.18	0	0
3	81	1	2	50	0	128	128	1	1	0	0	1181.3	1	0
3	82	1	3	50	128	0	128	5	1	0	0	818.61	1	1
3	83	1	5	50	128	128	0	6	2	0	0	1239	1	0
3	84	1	6	50	255	255	0	2	1	0	0	215.17	0	0
3	85	1	1	50	255	255	255	3	2	0	0	328.29	0	0
3	86	1	4	50	0	0	255	4	1	0	0	188.14	1	0
3	87	1	5	50	128	128	0	6	2	0	0	364.64	1	0
3	88	1	2	50	0	128	128	1	1	0	0	317.98	1	0
3	89	1	6	50	255	255	0	2	1	0	0	844.9299999999999	0	0
3	90	1	6	50	255	255	0	2	2	0	0	323.11	1	1
3	91	1	2	50	0	128	128	1	1	0	0	424.63	1	0
3	92	1	2	50	0	128	128	1	1	0	0	534.36	0	0
3	93	1	3	50	128	0	128	5	1	0	0	289.05	0	1
3	94	1	6	50	255	255	0	2	2	0	0	264.53	0	1
3	95	1	4	50	0	0	255	4	1	0	0	339.04	1	0
3	96	1	6	50	255	255	0	2	1	0	0	1223.5	0	0
3	97	1	3	50	128	0	128	5	1	0	0	125.4	0	1
3	98	1	4	50	0	0	255	4	1	0	0	1379.3	1	0
3	99	1	4	50	0	0	255	4	1	0	0	410.14	1	0
3	100	1	1	50	255	255	255	3	2	0	0	459.16	0	0
3	101	1	5	50	128	128	0	6	2	0	0	503.71	0	0
3	102	1	3	50	128	0	128	5	2	0	0	1372.7	0	0
3	103	1	1	50	255	255	255	3	2	0	0	511.16	1	0
3	104	1	1	50	255	255	255	3	2	0	0	447.24	1	0
3	105	1	3	50	128	0	128	5	2	0	0	1512.2	0	0
3	106	1	1	50	255	255	255	3	2	0	0	262.94	1	0
3	107	1	4	50	0	0	255	4	1	0	0	896.89	1	0
3	108	1	3	50	128	0	128	5	2	0	0	1279.8	1	0
3	109	1	5	50	128	128	0	6	1	0	0	417.4	1	1
3	110	1	2	50	0	128	128	1	1	0	0	390.68	0	0
3	111	1	4	50	0	0	255	4	1	0	0	761.63	0	0
3	112	1	1	50	255	255	255	3	2	0	0	314.26	0	0
3	113	1	2	50	0	128	128	1	1	0	0	526.08	1	0
3	114	1	3	50	128	0	128	5	2	0	0	336.59	0	0
3	115	1	2	50	0	128	128	1	1	0	0	273.54	1	0
3	116	1	1	50	255	255	255	3	2	0	0	336.29	1	0
3	117	1	2	50	0	128	128	1	1	0	0	323.61	0	0
3	118	1	5	50	128	128	0	6	2	0	0	1010.3	0	0
3	119	1	4	50	0	0	255	4	1	0	0	653.0599999999999	1	0
3	120	1	2	50	0	128	128	1	1	0	0	893.38	1	0
3	121	1	2	50	0	128	128	1	1	0	0	395.12	0	0
3	122	1	6	50	255	255	0	2	1	0	0	276.77	0	0
3	123	1	5	50	128	128	0	6	1	0	0	477.54	0	1
3	124	1	1	50	255	255	255	3	2	0	0	288.9	1	0
3	125	1	4	50	0	0	255	4	1	0	0	419.32	0	0
3	126	1	3	50	128	0	128	5	1	0	0	363.39	1	1
3	127	1	6	50	255	255	0	2	2	0	0	401.31	0	1
3	128	1	4	50	0	0	255	4	1	0	0	1052.8	0	0
3	129	1	3	50	128	0	128	5	1	0	0	730.7	1	1
3	130	1	1	50	255	255	255	3	2	0	0	227.38	0	0
3	131	1	5	50	128	128	0	6	2	0	0	125.89	1	0
3	132	1	1	50	255	255	255	3	2	0	0	260.08	0	0
3	133	1	3	50	128	0	128	5	2	0	0	211.06	0	0
3	134	1	6	50	255	255	0	2	2	0	0	144.67	1	1
3	135	1	3	50	128	0	128	5	2	0	0	475.98	1	0
3	136	1	1	50	255	255	255	3	2	0	0	189.25	0	0
3	137	1	3	50	128	0	128	5	2	0	0	199.45	0	0
3	138	1	2	50	0	128	128	1	1	0	0	336.45	1	0
3	139	1	6	50	255	255	0	2	2	0	0	636.2	0	1
3	140	1	5	50	128	128	0	6	2	0	0	691.8099999999999	0	0
3	141	1	3	50	128	0	128	5	2	0	0	144.98	0	0
3	142	1	4	50	0	0	255	4	1	0	0	186.76	0	0
3	143	1	1	50	255	255	255	3	2	0	0	201.13	1	0
3	144	1	6	50	255	255	0	2	1	0	0	1523.5	0	0
